<?xml version="1.0" encoding="utf-8"?>
<Bundle xmlns="http://hl7.org/fhir" xmlns:xsi="http://www.w3.org/2001/XMLSchema-instance">
  <id value="specialty-rx-response-bundle-1" />
  <meta>
    <profile value="http://hl7.org/fhir/us/ncpdp/StructureDefinition/specialty-rx-response-bundle" />
  </meta>
  <type value="message" />
  <timestamp value="2019-11-15T13:10:13-05:00" />
  <entry>
    <fullUrl value="urn:uuid:61ebe359-bfdc-4613-8bf2-c5e300945f0a" />
    <resource>
      <MessageHeader>
        <id value="specialty-rx-response-messageheader-1" />
        <meta>
          <profile value="http://hl7.org/fhir/us/ncpdp/StructureDefinition/specialty-rx-response-messageheader" />
        </meta>
        <eventCoding>
          <system value="http://hl7.org/fhir/us/ncpdp/CodeSystem/specialty-rx-event-type" />
          <code value="specialty-rx-response" />
          <display value="Specialty Rx Response" />
        </eventCoding>
        <source>
          <name value="Our Clinics" />
          <endpoint value="http://example.org/our-clinics/fhir" />
        </source>
        <focus>
          <reference value="https://example.com/base/Communication/com1" />
		</focus>
      </MessageHeader>
    </resource>
  </entry>
  <entry>
    <fullUrl value="https://example.com/base/Communication/com1" />
    <resource>
      <Communication>
        <id value="com1" />
        <meta>
          <versionId value="1" />
          <lastUpdated value="2020-04-21T21:00:00.000-00:00" />
          <profile value="http://hl7.org/fhir/us/ncpdp/StructureDefinition/specialty-rx-communication" />
        </meta>
        <text>
          <status value="generated" />
          <div xmlns="http://www.w3.org/1999/xhtml">Communciation containing requested patient information.</div>
        </text>
        <identifier>
          <system value="http://www.example.com/ourpharmacy/inforequests" />
          <value value="ABC123" />
        </identifier>
        <basedOn>
          <reference value="CommunicationRequest/comrequest1" />
          <type value="CommunicationRequest" />
        </basedOn>
        <status value="completed" />
        <category>
          <coding>
            <system value="http://hl7.org/fhir/us/ncpdp/CodeSystem/specialty-rx-communication-category" />
            <code value="solicited-data" />
          </coding>
        </category>
        <subject>
          <reference value="Patient/patient1" />
        </subject>
        <about>
          <reference value="MedicationRequest/medreq1" />
        </about>
        <sent value="2020-04-21T21:00:00-00:00" />
        <recipient>
          <reference value="Organization/pharmacy1" />
        </recipient>
        <sender>
          <reference value="Organization/specialty-rx-provider-organization-1" />
        </sender>
        <payload>
          <extension url="http://hl7.org/fhir/us/ncpdp/StructureDefinition/specialty-rx-payload-query-string">
            <valueString value="Condition?patient=patient1" />
          </extension>
          <contentReference>
            <reference value="Condition/condition1" />
          </contentReference>
        </payload>
        <payload>
          <extension url="http://hl7.org/fhir/us/ncpdp/StructureDefinition/specialty-rx-payload-query-string">
            <valueString value="AllergyIntolerance?patient=patient1" />
          </extension>
          <contentReference>
            <reference value="AllergyIntolerance/allergyintolerance1" />
          </contentReference>
        </payload>
      </Communication>
    </resource>
  </entry>
  <entry>
    <fullUrl value="https://example.com/base/MedicationRequest/com1" />
    <resource>
      <MedicationRequest>
        <id value="medreq1" />
        <meta>
          <profile value="http://hl7.org/fhir/us/ncpdp/StructureDefinition/specialty-rx-medicationrequest" />
        </meta>
        <status value="active" />
        <intent value="order" />
        <medicationCodeableConcept>
          <coding>
            <system value="http://www.nlm.nih.gov/research/umls/rxnorm" />
            <code value="205535" />
            <display value="PROzac 10 MG Oral Capsule" />
          </coding>
        </medicationCodeableConcept>
        <subject>
          <reference value="Patient/patient1" />
        </subject>
        <authoredOn value="2020-03-10" />
        <requester>
          <reference value="Practitioner/practitioner1" />
        </requester>
        <dosageInstruction>
          <text value="Take 1 tablet twice a day" />
        </dosageInstruction>
        <dispenseRequest>
          <initialFill>
            <quantity>
              <value value="60" />
              <unit value="EA" />
            </quantity>
          </initialFill>
          <numberOfRepeatsAllowed value="2" />
          <expectedSupplyDuration>
            <value value="30" />
            <unit value="days" />
            <system value="http://unitsofmeasure.org" />
            <code value="d" />
          </expectedSupplyDuration>
          <performer>
            <identifier>
              <value value="TBD Pharmacy ID" />
            </identifier>
            <display value="Our Specialty Pharmacy" />
          </performer>
        </dispenseRequest>
        <substitution>
          <allowedBoolean value="false" />
        </substitution>
      </MedicationRequest>
    </resource>
  </entry>
  <entry>
    <fullUrl value="https://example.com/base/Patient/patient1" />
    <resource>
      <Patient>
        <id value="patient1" />
        <meta>
          <profile value="http://hl7.org/fhir/us/ncpdp/StructureDefinition/specialty-rx-patient" />
        </meta>
        <text>
          <status value="generated" />
          <div xmlns="http://www.w3.org/1999/xhtml">
            <p>
              <b>Generated Narrative with Details</b>
            </p>
            <p>
              <b>id</b>: patient1</p>
            <p>
              <b>identifier</b>: SSN Last 4 Digits = 1234</p>
            <p>
              <b>active</b>: true</p>
            <p>
              <b>name</b>: Timothy Doe </p>
            <p>
              <b>telecom</b>: ph: 555-555-5555(HOME), tim.doe@example.com</p>
            <p>
              <b>gender</b>: Male</p>
            <p>
              <b>birthDate</b>: Feb 20, 1987</p>
            <p>
              <b>address</b>: 2224 Century Ave, Minnetonka, MN 55345 </p>
          </div>
        </text>
        <identifier>
          <system value="http://example.org/ssn-last-4" />
          <value value="1234" />
        </identifier>
        <active value="true" />
        <name>
          <family value="Doe" />
          <given value="Timothy" />
          <given value="V." />
        </name>
        <telecom>
          <system value="phone" />
          <value value="555-555-5555" />
          <use value="home" />
        </telecom>
        <telecom>
          <system value="email" />
          <value value="amy.shaw@example.com" />
        </telecom>
        <gender value="male" />
        <birthDate value="1987-02-20" />
        <address>
          <line value="2224 Century Ave" />
          <city value="Minnetonka" />
          <state value="MN" />
          <postalCode value="55345" />
          <country value="US" />
        </address>
        <communication>
          <language>
            <coding>
              <system value="urn:ietf:bcp:47" />
              <code value="en-US" />
              <display value="English (Region=United States)" />
            </coding>
          </language>
        </communication>
      </Patient>
    </resource>
  </entry>
  <entry>
    <fullUrl value="https://example.com/base/Practitioner/practitioner1" />
    <resource>
      <Practitioner>
        <id value="practitioner1" />
        <meta>
          <profile value="http://hl7.org/fhir/us/ncpdp/StructureDefinition/specialty-rx-practitioner" />
        </meta>
        <text>
          <status value="generated" />
          <div xmlns="http://www.w3.org/1999/xhtml">
            <p>
              <b>Generated Narrative with Details</b>
            </p>
            <p>
              <b>id</b>: practitioner1</p>
            <p>
              <b>meta</b>: </p>
            <p>
              <b>identifier</b>: 9901348150</p>
            <p>
              <b>name</b>: Jane Smith </p>
            <p>
              <b>address</b>: 101 Oak Lane, Minnetonka, MN 55345(WORK)</p>
          </div>
        </text>
        <identifier>
          <system value="http://hl7.org/fhir/sid/us-npi" />
          <value value="9941339108" />
        </identifier>
        <name>
          <family value="Smith" />
          <given value="Jane" />
          <prefix value="Dr" />
        </name>
        <telecom>
          <system value="phone" />
          <value value="555-555-5555" />
          <use value="home" />
        </telecom>
        <telecom>
          <system value="fax" />
          <value value="555-555-1234" />
          <use value="home" />
        </telecom>
        <telecom>
          <system value="email" />
          <value value="jane.doe@example.org" />
          <use value="work" />
        </telecom>
        <address>
          <use value="home" />
          <line value="101 Oak Lane" />
          <city value="Minnetonka" />
          <state value="MN" />
          <postalCode value="55345" />
        </address>
      </Practitioner>
    </resource>
  </entry>
  <entry>
    <fullUrl value="https://example.com/base/Organization/pharmacy1" />
    <resource>
      <Organization>
        <id value="pharmacy1" />
        <identifier>
          <system value="http://hl7.org/fhir/sid/us-npi" />
          <value value="1669512345" />
        </identifier>
        <active value="true" />
        <type>
          <coding>
            <system value="http://terminology.hl7.org/CodeSystem/organization-type" />
            <code value="prov" />
            <display value="Healthcare Provider" />
          </coding>
        </type>
        <name value="Our Pharmacy" />
        <telecom>
          <system value="phone" />
          <value value="952-555-5555" />
        </telecom>
        <telecom>
          <system value="email" />
          <value value="contac-our-clinict@example.org" />
        </telecom>
        <address>
          <line value="220 Oak St" />
          <city value="Minneapolis" />
          <state value="MN" />
          <postalCode value="55008" />
          <country value="USA" />
        </address>
      </Organization>
    </resource>
  </entry>
  <entry>
    <fullUrl value="https://example.com/base/Condition/condition1" />
    <resource>
      <Condition>
        <id value="condition1" />
        <meta>
          <profile value="http://hl7.org/fhir/us/ncpdp/StructureDefinition/specialty-rx-condition" />
        </meta>
        <clinicalStatus>
          <coding>
            <system value="http://terminology.hl7.org/CodeSystem/condition-clinical" />
            <code value="active" />
          </coding>
        </clinicalStatus>
        <verificationStatus>
          <coding>
            <system value="http://terminology.hl7.org/CodeSystem/condition-ver-status" />
            <code value="confirmed" />
          </coding>
        </verificationStatus>
        <category>
          <coding>
            <system value="http://snomed.info/sct" />
            <code value="439401001" />
            <display value="diagnosis" />
          </coding>
        </category>
        <severity>
          <coding>
            <system value="http://snomed.info/sct" />
            <code value="6736007" />
            <display value="Moderate" />
          </coding>
        </severity>
        <code>
          <coding>
            <system value="http://snomed.info/sct" />
            <code value="368009" />
            <display value="Heart valve disorder" />
          </coding>
        </code>
        <bodySite>
          <coding>
            <system value="http://snomed.info/sct" />
            <code value="40768004" />
            <display value="Left thorax" />
          </coding>
          <text value="heart structure" />
        </bodySite>
        <subject>
          <reference value="Patient/patient1" />
          <display value="Timothy Doe" />
        </subject>
        <onsetDateTime value="2017-10-01" />
        <recordedDate value="2017-10-05" />
        <asserter>
          <reference value="Practitioner/practitioner1" />
          <display value="Jane Smith" />
        </asserter>
        <evidence>
          <code>
            <coding>
              <system value="http://snomed.info/sct" />
              <code value="426396005" />
              <display value="Cardiac chest pain" />
            </coding>
          </code>
        </evidence>
      </Condition>
    </resource>
  </entry>
  <entry>
    <fullUrl value="https://example.com/base/AllergyIntolerance/allergyintolerance1" />
    <resource>
      <AllergyIntolerance>
        <id value="allergyintolerance1" />
        <meta>
          <profile value="http://hl7.org/fhir/us/ncpdp/StructureDefinition/specialty-rx-allergyintolerance" />
        </meta>
        <text>
          <status value="generated" />
          <div xmlns="http://www.w3.org/1999/xhtml">
            <p>
              <b> Generated Narrative with Details</b>
            </p>
            <p>
              <b> id</b> : medication</p>
            <p>
              <b> clinicalStatus</b> : Active <span> (Details : {http://terminology.hl7.org/CodeSystem/allergyintolerance-clinical code 'active'      = 'Active', given as 'Active'})</span></p>
            <p>
              <b> verificationStatus</b> : Unconfirmed <span> (Details : {http://terminology.hl7.org/CodeSystem/allergyintolerance-verification code      'unconfirmed' = 'Unconfirmed', given as 'Unconfirmed'})</span></p>
            <p>
              <b> category</b> : medication</p>
            <p>
              <b> criticality</b> : high</p>
            <p>
              <b> code</b> : Penicillin G <span> (Details : {RxNorm code '7980' = 'Penicillin G', given as 'Penicillin G'})</span></p>
            <p>
              <b> patient</b> : <a> Patient/patient1</a></p>
            <p>
              <b> recordedDate</b> : 01/03/2010</p>
            <p>
              <b> recorder</b> : <a> Practitioner/practitioner1</a></p>
            <h3> Reactions</h3>
            <table>
              <tr>
                <td> -</td>
                <td>
                  <b> Manifestation</b>
                </td>
              </tr>
              <tr>
                <td> *</td>
                <td> Hives <span> (Details : {SNOMED CT code '247472004' = 'Weal', given as 'Hives'})</span></td>
              </tr>
            </table>
          </div>
        </text>
        <clinicalStatus>
          <coding>
            <system value="http://terminology.hl7.org/CodeSystem/allergyintolerance-clinical" />
            <code value="active" />
            <display value="Active" />
          </coding>
        </clinicalStatus>
        <verificationStatus>
          <coding>
            <system value="http://terminology.hl7.org/CodeSystem/allergyintolerance-verification" />
            <code value="unconfirmed" />
            <display value="Unconfirmed" />
          </coding>
        </verificationStatus>
        <category value="medication" />
        <criticality value="high" />
        <code>
          <coding>
            <system value="http://www.nlm.nih.gov/research/umls/rxnorm" />
            <code value="7980" />
            <display value="Penicillin G" />
          </coding>
        </code>
        <patient>
          <reference value="Patient/patient1" />
        </patient>
        <recordedDate value="2010-03-01" />
        <recorder>
          <reference value="Practitioner/practitioner1" />
        </recorder>
        <reaction>
          <manifestation>
            <coding>
              <system value="http://snomed.info/sct" />
              <code value="247472004" />
              <display value="Hives" />
            </coding>
          </manifestation>
        </reaction>
      </AllergyIntolerance>
    </resource>
  </entry>
  <entry>
    <fullUrl value="https://example.com/base/CommunicationRequest/comrequest1" />
    <resource>
      <CommunicationRequest>
        <id value="comrequest1" />
        <meta>
          <versionId value="4" />
          <lastUpdated value="2020-04-21T21:00:00.000-00:00" />
          <profile value="http://hl7.org/fhir/us/ncpdp/StructureDefinition/specialty-rx-communicationrequest" />
        </meta>
        <text>
          <status value="generated" />
          <div xmlns="http://www.w3.org/1999/xhtml">Request for patient conditions and allergies</div>
        </text>
        <identifier>
          <system value="http://www.example.com/ourpharmacy/inforequests" />
          <value value="ABC123" />
        </identifier>
        <status value="active" />
        <category>
          <coding>
            <system value="http://hl7.org/fhir/us/ncpdp/CodeSystem/specialty-rx-communication-category" />
            <code value="solicited-data-request" />
          </coding>
        </category>
        <priority value="routine" />
        <medium>
          <coding>
            <system value="http://terminology.hl7.org/CodeSystem/v3-ParticipationMode" />
            <code value="WRITTEN" />
            <display value="written" />
          </coding>
          <text value="written" />
        </medium>
        <subject>
          <reference value="Patient/patient1" />
        </subject>
        <about>
          <reference value="MedicationRequest/medreq1" />
        </about>
        <payload>
          <extension url="http://hl7.org/fhir/us/ncpdp/StructureDefinition/specialty-rx-payload-query-string">
            <valueString value="Condition?patient=patient1" />
          </extension>
          <contentString value="Please provide the patient's conditions" />
        </payload>
        <payload>
          <extension url="http://hl7.org/fhir/us/ncpdp/StructureDefinition/specialty-rx-payload-query-string">
            <valueString value="AllergyIntolerance?patient=patient1" />
          </extension>
          <contentString value="Please send the patient's allergies and intolerances" />
        </payload>
        <occurrenceDateTime value="2020-04-20T08:00:00-05:00" />
        <authoredOn value="2020-04-21T21:00:00-00:00" />
        <requester>
          <reference value="Organization/pharmacy1" />
        </requester>
        <recipient>
          <reference value="Organization/pharmacy1" />
        </recipient>
        <sender>
          <reference value="Organization/specialty-rx-provider-organization-1" />
        </sender>
      </CommunicationRequest>
    </resource>
  </entry>
</Bundle>
