<?xml version="1.0" encoding="utf-8"?>
<Bundle xmlns="http://hl7.org/fhir" xmlns:xsi="http://www.w3.org/2001/XMLSchema-instance">
  <id value="specialty-rx-query-1" />
  <meta>
    <profile value="http://hl7.org/fhir/us/specialty-rx/StructureDefinition/specialty-rx-bundle-query" />
  </meta>
  <type value="message" />
  <timestamp value="2020-07-08T08:10:13-05:00" />
  <entry>
    <fullUrl value="https://example.org/MyPharmacyApp/MessageHeader/reqheader1" />
    <resource>
      <MessageHeader>
        <id value="req1" />
        <eventCoding>
          <system value="http://hl7.org/fhir/us/specialty-rx/CodeSystem/specialty-rx-event-type" />
          <code value="query" />
        </eventCoding>
        <source>
          <name value="MyPharmacyApp" />
          <endpoint value="http://example.org/MyPharmacyApp" />
        </source>
        <focus>
          <reference value="urn:uuid:61ebe359-bfdc-4613-8bf2-c5e300945f0b" />
        </focus>
      </MessageHeader>
    </resource>
  </entry>
  <entry>
    <fullUrl value="urn:uuid:61ebe359-bfdc-4613-8bf2-c5e300945f0b" />
    <resource>
      <Parameters>
        <id value="61ebe359-bfdc-4613-8bf2-c5e300945f0b" />
        <meta>
          <profile value="http://hl7.org/fhir/us/specialty-rx/StructureDefinition/specialty-rx-parameters-query" />
        </meta>
        <parameter>
          <name value="query-string" />
          <valueString value="AllergyIntolerance?clinical-status=active" />
        </parameter>
        <parameter>
          <name value="query-string" />
          <valueString value="Condition?clinical-status=active" />
        </parameter>
        <parameter>
          <name value="query-string" />
          <valueString value="Coverage" />
        </parameter>
        <parameter>
          <name value="query-string" />
          <valueString value="Observation?category=vital-signs" />
        </parameter>
        <parameter>
          <name value="query-string" />
          <valueString value="Observation?category=laboratory" />
        </parameter>
        <parameter>
          <name value="query-string" />
          <valueString value="MedicationRequest" />
        </parameter>
        <parameter>
          <name value="requester-patient" />
          <valueReference>
            <reference value="Patient/patient1" />
          </valueReference>
        </parameter>
      </Parameters>
    </resource>
  </entry>
  <entry>
    <fullUrl value="http://example.org/MyPharmacyApp/Patient/patient1" />
    <resource>
      <Patient>
        <id value="patient1" />
        <meta>
          <profile value="http://hl7.org/fhir/us/specialty-rx/StructureDefinition/specialty-rx-patient" />
        </meta>
        <identifier>
          <type>
            <coding>
              <system value="http://terminology.hl7.org/CodeSystem/v2-0203" />
              <code value="PI" />
              <display value="Patient internal identifier" />
            </coding>
          </type>
          <system value="http://example.org/MyPharmacyApp/patient-id" />
          <value value="540002" />
        </identifier>
        <active value="true" />
        <name>
          <family value="Doe" />
          <given value="Tim" />
        </name>
        <telecom>
          <system value="phone" />
          <value value="555-555-5555" />
          <use value="home" />
        </telecom>
        <telecom>
          <system value="email" />
          <value value="tim.doe@example.com" />
        </telecom>
        <gender value="male" />
        <birthDate value="1987-02-20" />
        <address>
          <line value="2224 Century Ave" />
          <city value="Minnetonka" />
          <state value="MN" />
          <postalCode value="55345" />
          <country value="US" />
        </address>
        <communication>
          <language>
            <coding>
              <system value="urn:ietf:bcp:47" />
              <code value="en-US" />
              <display value="English (Region=United States)" />
            </coding>
          </language>
        </communication>
      </Patient>
    </resource>
  </entry>
</Bundle>