<?xml version="1.0" encoding="utf-8"?>
<Bundle xmlns="http://hl7.org/fhir" xmlns:xsi="http://www.w3.org/2001/XMLSchema-instance">
  <id value="specialty-rx-data-query-response-1" />
  <type value="message" />
  <timestamp value="2019-11-15T13:10:17-05:00" />
  <entry>
    <fullUrl value="https://example.com/base/MessageHeader/resheader1" />
    <resource>
      <MessageHeader>
        <id value="res1" />
        <eventCoding>
          <system value="urn:ietf:rfc:3986" />
          <code value="http://hl7.org/fhir/us/ncpdp/OperationDefinition/specialty-rx-query-data" />
        </eventCoding>
        <source>
          <name value="MyEHR" />
          <endpoint value="http://example.org/MyEHR" />
        </source>
        <response>
          <identifier value="req1" />
          <code value="ok" />
        </response>
        <focus>
          <reference value="https://example.com/base/Bundle/1234567" />
        </focus>
      </MessageHeader>
    </resource>
  </entry>
  <entry>
    <fullUrl value="https://example.com/base/Bundle/1234567" />
    <resource>
      <Bundle>
        <id value="1234567" />
        <meta>
          <profile value="http://hl7.org/fhir/us/ncpdp/StructureDefinition/specialty-rx-query-response-bundle" />
        </meta>
        <type value="collection" />
        <timestamp value="2019-11-15T13:10:17-05:00" />
        <entry>
          <fullUrl value="https://example.com/base/Patient/patientEHR" />
          <resource>
            <Patient>
              <id value="patientEHR" />
              <meta>
                <profile value="http://hl7.org/fhir/us/ncpdp/StructureDefinition/specialty-rx-patient" />
              </meta>
              <identifier>
                <type>
                  <coding>
                    <system value="http://terminology.hl7.org/CodeSystem/v2-0203" />
                    <code value="PI" />
                    <display value="Patient internal identifier" />
                  </coding>
                  <text value="Patient internal identifier" />
                </type>
                <system value="http://example.org/MyEHR" />
                <value value="30455" />
              </identifier>
              <active value="true" />
              <name>
                <family value="Doe" />
                <given value="Tim" />
              </name>
              <telecom>
                <system value="phone" />
                <value value="555-555-5555" />
                <use value="home" />
              </telecom>
              <telecom>
                <system value="email" />
                <value value="tim.doe@example.com" />
              </telecom>
              <gender value="male" />
              <birthDate value="1987-02-20" />
              <address>
                <line value="2224 Century Avenue" />
                <city value="Minnetonka" />
                <state value="MN" />
                <postalCode value="55345" />
                <country value="US" />
              </address>
              <communication>
                <language>
                  <coding>
                    <system value="urn:ietf:bcp:47" />
                    <code value="en-US" />
                    <display value="English (Region=United States)" />
                  </coding>
                </language>
              </communication>
            </Patient>
          </resource>
        </entry>
        <entry>
          <fullUrl value="https://example.com/base/Bundle/practitioner1" />
          <resource>
            <Practitioner>
              <id value="practitioner1" />
              <meta>
                <profile value="http://hl7.org/fhir/us/ncpdp/StructureDefinition/specialty-rx-practitioner" />
              </meta>
              <identifier>
                <system value="http://hl7.org/fhir/sid/us-npi" />
                <value value="9941339108" />
              </identifier>
              <name>
                <family value="Smith" />
                <given value="Jane" />
                <prefix value="Dr" />
              </name>
              <telecom>
                <system value="phone" />
                <value value="555-555-5555" />
                <use value="home" />
              </telecom>
              <telecom>
                <system value="fax" />
                <value value="555-555-1234" />
                <use value="home" />
              </telecom>
              <telecom>
                <system value="email" />
                <value value="jane.doe@example.org" />
                <use value="work" />
              </telecom>
              <address>
                <use value="home" />
                <line value="101 Oak Lane" />
                <city value="Minnetonka" />
                <state value="MN" />
                <postalCode value="55345" />
              </address>
            </Practitioner>
          </resource>
        </entry>
        <entry>
          <fullUrl value="https://example.com/base/Organization/pharmacy1" />
          <resource>
            <Organization>
              <id value="pharmacy1" />
              <identifier>
                <system value="http://hl7.org/fhir/sid/us-npi" />
                <value value="1669512345" />
              </identifier>
              <active value="true" />
              <type>
                <coding>
                  <system value="http://terminology.hl7.org/CodeSystem/organization-type" />
                  <code value="prov" />
                  <display value="Healthcare Provider" />
                </coding>
              </type>
              <name value="Our Pharmacy" />
              <telecom>
                <system value="phone" />
                <value value="952-555-5555" />
              </telecom>
              <telecom>
                <system value="email" />
                <value value="contac-our-clinict@example.org" />
              </telecom>
              <address>
                <line value="220 Oak St" />
                <city value="Minneapolis" />
                <state value="MN" />
                <postalCode value="55008" />
                <country value="USA" />
              </address>
            </Organization>
          </resource>
        </entry>
        <entry>
          <link>
            <relation value="self" />
            <url value="MedicationStatement?patient=patientEHR&amp;_list=$current-medications" />
          </link>
          <fullUrl value="https://example.com/base/List/1" />
          <resource>
            <List>
              <id value="1" />
              <status value="current" />
              <mode value="working" />
              <code>
                <coding>
                  <system value="http://loinc.org" />
                  <code value="10160-0" />
                  <display value="History of Medication use Narrative" />
                </coding>
                <text value="History of Medication use Narrative" />
              </code>
              <subject>
                <reference value="Patient/patientEHR" />
              </subject>
              <entry>
                <item>
                  <reference value="MedicationStatement/1" />
                </item>
              </entry>
              <entry>
                <item>
                  <reference value="MedicationStatement/2" />
                </item>
              </entry>
              <entry>
                <item>
                  <reference value="MedicationStatement/3" />
                </item>
              </entry>
            </List>
          </resource>
        </entry>
        <entry>
          <fullUrl value="https://example.com/base/MedicationStatement/1" />
          <resource>
            <MedicationStatement>
              <id value="1" />
              <status value="active" />
              <medicationCodeableConcept>
                <coding>
                  <system value="http://www.nlm.nih.gov/research/umls/rxnorm" />
                  <code value="617310" />
                </coding>
                <text value="atorvastatin 20 MG Oral Tablet" />
              </medicationCodeableConcept>
              <subject>
                <reference value="Patient/patientEHR" />
              </subject>
              <dateAsserted value="2019-10-05" />
            </MedicationStatement>
          </resource>
        </entry>
        <entry>
          <fullUrl value="https://example.com/base/MedicationStatement/2" />
          <resource>
            <MedicationStatement>
              <id value="2" />
              <status value="active" />
              <medicationCodeableConcept>
                <coding>
                  <system value="http://www.nlm.nih.gov/research/umls/rxnorm" />
                  <code value="750149" />
                </coding>
                <text value="{6 (Azithromycin 250 MG Oral Tablet [Zithromax]) } Pack [Z-PAK]" />
              </medicationCodeableConcept>
              <subject>
                <reference value="Patient/patientEHR" />
              </subject>
              <dateAsserted value="2019-10-05" />
            </MedicationStatement>
          </resource>
        </entry>
        <entry>
          <fullUrl value="https://example.com/base/MedicationStatement/3" />
          <resource>
            <MedicationStatement>
              <id value="2" />
              <status value="active" />
              <medicationCodeableConcept>
                <coding>
                  <system value="http://www.nlm.nih.gov/research/umls/rxnorm" />
                  <code value="197885" />
                </coding>
                <text value="Hydrochlorothiazide 12.5 MG / Lisinopril 10 MG Oral Tablet" />
              </medicationCodeableConcept>
              <subject>
                <reference value="Patient/patientEHR" />
              </subject>
              <dateAsserted value="2019-10-05" />
            </MedicationStatement>
          </resource>
        </entry>
      </Bundle>
    </resource>
  </entry>
</Bundle>