<?xml version="1.0" encoding="utf-8"?>
<Bundle xmlns="http://hl7.org/fhir" xmlns:xsi="http://www.w3.org/2001/XMLSchema-instance">
  <id value="specialty-rx-questionnaire-request-1" />
  <meta>
    <profile value="http://hl7.org/fhir/us/ncpdp/MessageDefinition/specialty-rx-questionnaire-message" />
  </meta>
  <type value="message" />
  <timestamp value="2019-11-15T13:10:13-05:00" />
  <entry>
    <fullUrl value="https://example.com/base/MessageHeader/reqheader1" />
    <resource>
      <MessageHeader>
        <id value="req1" />
        <eventCoding>
          <system value="urn:ietf:rfc:3986" />
          <code value="http://hl7.org/fhir/us/ncpdp/OperationDefinition/specialty-rx-populate-questionnaire" />
        </eventCoding>
        <source>
          <name value="MyPharmacyApp" />
          <endpoint value="http://example.org/MyPharmacyApp" />
        </source>
        <focus>
          <reference value="urn:uuid:61ebe359-bfdc-4613-8bf2-c5e300945f0b" />
        </focus>
      </MessageHeader>
    </resource>
  </entry>
  <entry>
    <fullUrl value="urn:uuid:61ebe359-bfdc-4613-8bf2-c5e300945f0b" />
    <resource>
      <Parameters>
        <id value="61ebe359-bfdc-4613-8bf2-c5e300945f0b" />
        <parameter>
          <name value="questionnaire" />
          <valueReference>
            <reference value="Questionnaire/1" />
          </valueReference>
        </parameter>
        <parameter>
          <name value="requester-patient-in" />
          <valueReference>
            <reference value="Patient/patient1" />
          </valueReference>
        </parameter>
        <parameter>
          <name value="medication-request" />
          <valueReference>
            <reference value="MedicationRequest/prescription1" />
          </valueReference>
        </parameter>
        <parameter>
          <name value="prescriber" />
          <valueReference>
            <reference value="Practitioner/practitioner1" />
          </valueReference>
        </parameter>
        <parameter>
          <name value="pharmacy" />
          <valueReference>
            <reference value="Organization/pharmacy1" />
          </valueReference>
        </parameter>
      </Parameters>
    </resource>
  </entry>
  <entry>
    <fullUrl value="https://example.com/base/Questionnaire/1" />
    <resource>
      <Questionnaire>
        <id value="1" />
        <language value="en-US" />
        <status value="active" />
        <item>
          <linkId value="LeftVentricularEjectionFraction_Value" />
          <text value="What is the patient's left ventricular ejection fraction?" />
          <type value="text" />
        </item>
        <item>
          <linkId value="ProgressNotesAttachment" />
          <text value="Include recent progress note(s) as PDF document" />
          <type value="attachment" />
        </item>
      </Questionnaire>
    </resource>
  </entry>
  <entry>
    <fullUrl value="https://example.com/base/MedicationRequest/prescription1" />
    <resource>
      <MedicationRequest>
        <id value="prescription1" />
        <meta>
          <profile value="http://hl7.org/fhir/us/ncpdp/StructureDefinition/specialty-rx-medicationrequest" />
        </meta>
        <status value="active" />
        <intent value="order" />
        <medicationCodeableConcept>
          <coding>
            <system value="http://www.nlm.nih.gov/research/umls/rxnorm" />
            <code value="205535" />
            <display value="PROzac 10 MG Oral Capsule" />
          </coding>
        </medicationCodeableConcept>
        <subject>
          <reference value="Patient/patient1" />
        </subject>
        <authoredOn value="2020-03-10" />
        <requester>
          <reference value="Practitioner/practitioner1" />
        </requester>
        <dosageInstruction>
          <text value="Take 1 tablet twice a day" />
        </dosageInstruction>
        <dispenseRequest>
          <initialFill>
            <quantity>
              <value value="60" />
              <unit value="EA" />
            </quantity>
          </initialFill>
          <numberOfRepeatsAllowed value="2" />
          <expectedSupplyDuration>
            <value value="30" />
            <unit value="days" />
            <system value="http://unitsofmeasure.org" />
            <code value="d" />
          </expectedSupplyDuration>
          <performer>
            <reference value="Organization/pharmacy1" />
            <display value="Our Specialty Pharmacy" />
          </performer>
        </dispenseRequest>
        <substitution>
          <allowedBoolean value="false" />
        </substitution>
      </MedicationRequest>
    </resource>
  </entry>
  <entry>
    <fullUrl value="https://example.com/base/Patient/patient1" />
    <resource>
      <Patient>
        <id value="patient1" />
        <meta>
          <profile value="http://hl7.org/fhir/us/ncpdp/StructureDefinition/specialty-rx-patient" />
        </meta>
        <identifier>
          <system value="http://example.org/ssn-last-4" />
          <value value="1234" />
        </identifier>
        <active value="true" />
        <name>
          <family value="Doe" />
          <given value="Timothy" />
          <given value="V." />
        </name>
        <telecom>
          <system value="phone" />
          <value value="555-555-5555" />
          <use value="home" />
        </telecom>
        <telecom>
          <system value="email" />
          <value value="amy.shaw@example.com" />
        </telecom>
        <gender value="male" />
        <birthDate value="1987-02-20" />
        <address>
          <line value="2224 Century Ave" />
          <city value="Minnetonka" />
          <state value="MN" />
          <postalCode value="55345" />
          <country value="US" />
        </address>
        <communication>
          <language>
            <coding>
              <system value="urn:ietf:bcp:47" />
              <code value="en-US" />
              <display value="English (Region=United States)" />
            </coding>
          </language>
        </communication>
      </Patient>
    </resource>
  </entry>
  <entry>
    <fullUrl value="https://example.com/base/Practitioner/practitioner1" />
    <resource>
      <Practitioner>
        <id value="practitioner1" />
        <meta>
          <profile value="http://hl7.org/fhir/us/ncpdp/StructureDefinition/specialty-rx-practitioner" />
        </meta>
        <identifier>
          <system value="http://hl7.org/fhir/sid/us-npi" />
          <value value="9941339108" />
        </identifier>
        <name>
          <family value="Smith" />
          <given value="Jane" />
          <prefix value="Dr" />
        </name>
        <telecom>
          <system value="phone" />
          <value value="555-555-5555" />
          <use value="home" />
        </telecom>
        <telecom>
          <system value="fax" />
          <value value="555-555-1234" />
          <use value="home" />
        </telecom>
        <telecom>
          <system value="email" />
          <value value="jane.doe@example.org" />
          <use value="work" />
        </telecom>
        <address>
          <use value="home" />
          <line value="101 Oak Lane" />
          <city value="Minnetonka" />
          <state value="MN" />
          <postalCode value="55345" />
        </address>
      </Practitioner>
    </resource>
  </entry>
  <entry>
    <fullUrl value="https://example.com/base/Organization/pharmacy1" />
    <resource>
      <Organization>
        <id value="pharmacy1" />
        <identifier>
          <system value="http://hl7.org/fhir/sid/us-npi" />
          <value value="1669512345" />
        </identifier>
        <active value="true" />
        <type>
          <coding>
            <system value="http://terminology.hl7.org/CodeSystem/organization-type" />
            <code value="prov" />
            <display value="Healthcare Provider" />
          </coding>
        </type>
        <name value="Our Pharmacy" />
        <telecom>
          <system value="phone" />
          <value value="952-555-5555" />
        </telecom>
        <telecom>
          <system value="email" />
          <value value="contac-our-clinict@example.org" />
        </telecom>
        <address>
          <line value="220 Oak St" />
          <city value="Minneapolis" />
          <state value="MN" />
          <postalCode value="55008" />
          <country value="USA" />
        </address>
      </Organization>
    </resource>
  </entry>
</Bundle>