<?xml version="1.0" encoding="utf-8"?>
<Bundle xmlns="http://hl7.org/fhir" xmlns:xsi="http://www.w3.org/2001/XMLSchema-instance">
  <id value="specialty-rx-request-bundle-1" />
  <type value="message" />
  <timestamp value="2019-11-15T13:10:13-05:00" />
  <entry>
    <fullUrl value="urn:uuid:61ebe359-bfdc-4613-8bf2-c5e300945f0a" />
    <resource>
      <MessageHeader>
        <id value="specialty-rx-request-messageheader-1" />
        <eventCoding>
          <system value="http://example.org/placeholder-specialty-rx-events" />
          <code value="specialty-rx-request" />
          <display value="Specialty Rx Request" />
        </eventCoding>
        <source>
          <name value="Our Pharmacy" />
          <endpoint value="http://example.org/our-pharmacy" />
        </source>
        <focus>
          <reference value="urn:uuid:61ebe359-bfdc-4613-8bf2-c5e300945f0b" />
        </focus>
      </MessageHeader>
    </resource>
  </entry>
  <entry>
    <fullUrl value="urn:uuid:61ebe359-bfdc-4613-8bf2-c5e300945f0b" />
    <resource>
      <CommunicationRequest>
        <id value="specialty-rx-communicationrequest-1-per-cdex" />
        <meta>
          <versionId value="4" />
          <lastUpdated value="2020-04-21T21:00:00.000-00:00" />
          <profile value="http://hl7.org/fhir/us/davinci-cdex/StructureDefinition/cdex-communicationrequest" />
        </meta>
        <text>
          <status value="generated" />
          <div xmlns="http://www.w3.org/1999/xhtml">Request for Discharge Summary, per CDex profile</div>
        </text>
        <identifier>
          <system value="http://www.jurisdiction.com/insurer/123456" />
          <value value="ABC123" />
        </identifier>
        <groupIdentifier>
          <value value="12345" />
        </groupIdentifier>
        <status value="active" />
        <category>
          <coding>
            <system value="http://acme.org/messagetypes" />
            <code value="SolicitedAttachmentRequest" />
          </coding>
        </category>
        <priority value="routine" />
        <medium>
          <coding>
            <system value="http://terminology.hl7.org/CodeSystem/v3-ParticipationMode" />
            <code value="WRITTEN" />
            <display value="written" />
          </coding>
          <text value="written" />
        </medium>
        <subject>
          <reference value="Patient/specialty-rx-patient-1" />
        </subject>
        <about>
          <reference value="MedicationRequest/specialty-rx-medicationrequest-1" />
        </about>
        <payload>
          <extension url="http://hl7.org/fhir/us/davinci-cdex/StructureDefinition/cdex-payload-query-string">
            <valueString value="Condition?patient=cdex-example-patient" />
          </extension>
          <contentString value="Please provide the patient's conditions" />
        </payload>
        <occurrenceDateTime value="2020-04-20T08:00:00-05:00" />
        <authoredOn value="2020-04-21T21:00:00-00:00" />
        <requester>
          <reference value="PractitionerRole/specialty-rx-practitionerrole-1" />
        </requester>
        <recipient>
          <reference value="Organization/specialty-rx-provider-organization-1" />
        </recipient>
        <sender>
          <reference value="Organization/specialty-rx-payor-organization-1" />
        </sender>
      </CommunicationRequest>
    </resource>
  </entry>
  <entry>
    <fullUrl value="urn:uuid:61ebe359-bfdc-4613-8bf2-c5e300945f0c" />
    <resource>
      <MedicationRequest>
        <id value="specialty-rx-medicationrequest-1" />
        <meta>
          <profile value="http://hl7.org/fhir/us/ncpdp/StructureDefinition/specialty-rx-medicationrequest" />
        </meta>
        <status value="active" />
        <intent value="order" />
        <medicationCodeableConcept>
          <coding>
            <system value="http://www.nlm.nih.gov/research/umls/rxnorm" />
            <code value="205535" />
            <display value="Prozac 10 MG Oral Capsule" />
          </coding>
          <coding>
            <system value="http://terminology.hl7.org/CodeSystem/ndc-11" />
            <code value="00777310402" />
            <display value="Prozac 10mg capsule" />
          </coding>
        </medicationCodeableConcept>
        <subject>
          <reference value="Patient/specialty-rx-patient-1" />
        </subject>
        <authoredOn value="2020-03-10" />
        <requester>
          <reference value="Practitioner/specialty-rx-practitioner-1" />
        </requester>
        <dosageInstruction>
          <text value="Take 1 tablet twice a day" />
        </dosageInstruction>
        <dispenseRequest>
          <initialFill>
            <quantity>
              <value value="60" />
              <unit value="EA" />
            </quantity>
          </initialFill>
          <numberOfRepeatsAllowed value="2" />
          <expectedSupplyDuration>
            <value value="30" />
            <unit value="days" />
            <system value="http://unitsofmeasure.org" />
            <code value="d" />
          </expectedSupplyDuration>
          <performer>
            <identifier>
              <value value="TBD Pharmacy ID" />
            </identifier>
            <display value="Our Specialty Pharmacy" />
          </performer>
        </dispenseRequest>
        <substitution>
          <allowedBoolean value="false" />
        </substitution>
      </MedicationRequest>
    </resource>
  </entry>
  <entry>
    <fullUrl value="urn:uuid:61ebe359-bfdc-4613-8bf2-c5e300945f0d" />
    <resource>
      <Patient>
        <id value="specialty-rx-patient-1" />
        <meta>
          <profile value="http://hl7.org/fhir/us/ncpdp/StructureDefinition/specialty-rx-patient" />
        </meta>
        <text>
          <status value="generated" />
          <div xmlns="http://www.w3.org/1999/xhtml">
            <p>
              <b>Generated Narrative with Details</b>
            </p>
            <p>
              <b>id</b>: specialty-rx-patient-1</p>
            <p>
              <b>identifier</b>: SSN Last 4 Digits = 1234</p>
            <p>
              <b>active</b>: true</p>
            <p>
              <b>name</b>: Timothy Doe </p>
            <p>
              <b>telecom</b>: ph: 555-555-5555(HOME), tim.doe@example.com</p>
            <p>
              <b>gender</b>: Male</p>
            <p>
              <b>birthDate</b>: Feb 20, 1987</p>
            <p>
              <b>address</b>: 2224 Century Ave, Minnetonka, MN 55345 </p>
          </div>
        </text>
        <identifier>
          <system value="http://example.org/ssn-last-4" />
          <value value="1234" />
        </identifier>
        <active value="true" />
        <name>
          <family value="Doe" />
          <given value="Timothy" />
          <given value="V." />
        </name>
        <telecom>
          <system value="phone" />
          <value value="555-555-5555" />
          <use value="home" />
        </telecom>
        <telecom>
          <system value="email" />
          <value value="amy.shaw@example.com" />
        </telecom>
        <gender value="male" />
        <birthDate value="1987-02-20" />
        <address>
          <line value="2224 Century Ave" />
          <city value="Minnetonka" />
          <state value="MN" />
          <postalCode value="55345" />
          <country value="US" />
        </address>
        <communication>
          <language>
            <coding>
              <system value="urn:ietf:bcp:47" />
              <code value="en-US" />
              <display value="English (Region=United States)" />
            </coding>
          </language>
        </communication>
      </Patient>
    </resource>
  </entry>
  <entry>
    <fullUrl value="urn:uuid:61ebe359-bfdc-4613-8bf2-c5e300945f0e" />
    <resource>
      <Practitioner>
        <id value="specialty-rx-practitioner-1" />
        <meta>
          <profile value="http://hl7.org/fhir/us/ncpdp/StructureDefinition/specialty-rx-practitioner" />
        </meta>
        <text>
          <status value="generated" />
          <div xmlns="http://www.w3.org/1999/xhtml">
            <p>
              <b>Generated Narrative with Details</b>
            </p>
            <p>
              <b>id</b>: specialty-rx-practitioner-1</p>
            <p>
              <b>meta</b>: </p>
            <p>
              <b>identifier</b>: 9901348150</p>
            <p>
              <b>name</b>: Jane Smith </p>
            <p>
              <b>address</b>: 101 Oak Lane, Minnetonka, MN 55345(WORK)</p>
          </div>
        </text>
        <identifier>
          <system value="http://hl7.org/fhir/sid/us-npi" />
          <value value="9941339108" />
        </identifier>
        <name>
          <family value="Smith" />
          <given value="Jane" />
          <prefix value="Dr" />
        </name>
        <telecom>
          <system value="phone" />
          <value value="555-555-5555" />
          <use value="home" />
        </telecom>
        <telecom>
          <system value="fax" />
          <value value="555-555-1234" />
          <use value="home" />
        </telecom>
        <telecom>
          <system value="email" />
          <value value="jane.doe@example.org" />
          <use value="work" />
        </telecom>
        <address>
          <use value="home" />
          <line value="101 Oak Lane" />
          <city value="Minnetonka" />
          <state value="MN" />
          <postalCode value="55345" />
        </address>
      </Practitioner>
    </resource>
  </entry>
  <entry>
    <fullUrl value="urn:uuid:61ebe359-bfdc-4613-8bf2-c5e300945f0f" />
    <resource>
      <Organization>
        <id value="specialty-rx-pharmacy-organization-1" />
        <identifier>
          <system value="http://hl7.org/fhir/sid/us-npi" />
          <value value="1669512345" />
        </identifier>
        <active value="true" />
        <type>
          <coding>
            <system value="http://terminology.hl7.org/CodeSystem/organization-type" />
            <code value="prov" />
            <display value="Healthcare Provider" />
          </coding>
        </type>
        <name value="Our Pharmacy" />
        <telecom>
          <system value="phone" />
          <value value="952-555-5555" />
        </telecom>
        <telecom>
          <system value="email" />
          <value value="contac-our-clinict@example.org" />
        </telecom>
        <address>
          <line value="220 Oak St" />
          <city value="Minneapolis" />
          <state value="MN" />
          <postalCode value="55008" />
          <country value="USA" />
        </address>
      </Organization>
    </resource>
  </entry>
</Bundle>